File: AM0AM1_5.csv
Wavelength (nm),Extraterrestrial W*m-2*nm-1,Global tilt  W*m-2*nm-1,Direct+circumsolar W*m-2*nm-1,,Wavelength (nm),W*m-2*nm-1
280,0.082,4.73E-23,2.54E-26,,119.5,6.19E-05
281,0.15,5.69E-21,6.13E-24,,121.5,0.0049
282,0.267,1.19E-18,2.83E-21,,123.5,4.77E-05
283,0.325,1.85E-17,6.76E-20,,125.5,2.88E-05
284,0.299,7.27E-16,4.98E-18,,127.5,2.13E-05
285,0.176,8.01E-15,9E-17,,129.5,3.99E-05
286,0.242,1.37E-13,2.35E-15,,131.5,3.98E-05
287,0.362,2.74E-12,7.25E-14,,133.5,0.000168
288,0.311,6.23E-11,2.81E-12,,135.5,3.8E-05
289,0.392,5.63E-10,3.5E-11,,137.5,2.92E-05
290,0.563,6.02E-09,5.15E-10,,139.5,7.56E-05
291,0.618,3.51E-08,3.9E-09,,141.5,4.21E-05
292,0.567,2.68E-07,4.08E-08,,143.5,5.11E-05
293,0.538,8.65E-07,1.58E-07,,145.5,5.54E-05
294,0.533,4.17E-06,9.46E-07,,147.5,8.49E-05
295,0.527,1.23E-05,3.22E-06,,149.5,7.96E-05
296,0.573,4.79E-05,1.47E-05,,151.5,9.27E-05
297,0.478,9.68E-05,3.32E-05,,153.5,0.00013
298,0.528,0.00029,0.000111,,155.5,0.000214
299,0.472,0.000492,0.000203,,157.5,0.000172
300,0.458,0.00102,0.000456,,159.5,0.000175
301,0.463,0.00193,0.000919,,161.5,0.000223
302,0.449,0.00292,0.00146,,163.5,0.000284
303,0.612,0.00709,0.00373,,165.5,0.00043
304,0.621,0.00947,0.0051,,167.5,0.000387
305,0.642,0.0165,0.00893,,169.5,0.000588
306,0.565,0.0186,0.0101,,171.5,0.000688
307,0.605,0.0278,0.0152,,173.5,0.000764
308,0.645,0.0378,0.0208,,175.5,0.00108
309,0.58,0.0405,0.0223,,177.5,0.0014
310,0.533,0.0509,0.0278,,179.5,0.00158
311,0.762,0.0829,0.0454,,181.5,0.00223
312,0.706,0.0934,0.0509,,183.5,0.00224
313,0.694,0.107,0.0583,,185.5,0.00231
314,0.717,0.12,0.0653,,187.5,0.00301
315,0.684,0.136,0.0737,,189.5,0.00357
316,0.587,0.123,0.0671,,191.5,0.00417
317,0.739,0.172,0.093,,193.5,0.00381
318,0.724,0.176,0.0958,,195.5,0.00543
319,0.706,0.205,0.11,,197.5,0.00619
320,0.775,0.205,0.113,,199.5,0.00666
321,0.765,0.25,0.134,,201.5,0.00802
322,0.735,0.222,0.122,,203.5,0.00922
323,0.649,0.212,0.116,,205.5,0.0105
324,0.741,0.275,0.149,,207.5,0.0126
325,0.829,0.279,0.155,,209.5,0.0214
326,0.998,0.381,0.209,,211.5,0.0335
327,1,0.398,0.218,,213.5,0.0331
328,0.957,0.351,0.198,,215.5,0.0362
329,1,0.422,0.233,,217.5,0.0353
330,1.11,0.471,0.262,,219.5,0.0469
331,0.991,0.403,0.228,,221.5,0.0396
332,0.993,0.436,0.245,,223.5,0.063
333,0.964,0.429,0.243,,225.5,0.0523
334,0.956,0.415,0.238,,227.5,0.0399
335,1.01,0.464,0.265,,229.5,0.0477
336,0.89,0.415,0.238,,231.5,0.051
337,0.818,0.374,0.218,,233.5,0.0447
338,0.925,0.434,0.253,,235.5,0.0514
339,0.969,0.464,0.271,,237.5,0.0484
340,1.05,0.502,0.297,,239.5,0.0441
341,0.971,0.471,0.279,,241.5,0.0515
342,0.996,0.489,0.291,,243.5,0.0665
343,1.04,0.515,0.309,,245.5,0.0494
344,0.854,0.418,0.254,,247.5,0.0555
345,0.916,0.459,0.279,,249.5,0.0564
346,0.943,0.478,0.291,,251.5,0.046
347,0.97,0.494,0.303,,253.5,0.0515
348,0.925,0.475,0.293,,255.5,0.0793
349,0.899,0.466,0.289,,257.5,0.125
350,1.01,0.528,0.329,,259.5,0.104
351,1.05,0.552,0.346,,261.5,0.0898
352,0.984,0.518,0.327,,263.5,0.166
353,0.98,0.52,0.33,,265.5,0.253
354,1.13,0.605,0.385,,267.5,0.251
355,1.14,0.611,0.391,,269.5,0.239
356,1.02,0.554,0.356,,271.5,0.224
357,0.842,0.457,0.295,,273.5,0.197
358,0.789,0.43,0.279,,275.5,0.175
359,0.858,0.47,0.306,,277.5,0.234
360,1.09,0.598,0.392,,279.5,0.0856
361,0.942,0.52,0.343,,281.5,0.208
362,0.958,0.534,0.353,,283.5,0.314
363,1.07,0.602,0.4,,285.5,0.163
364,1.07,0.606,0.405,,287.5,0.336
365,1.1,0.624,0.418,,289.5,0.473
366,1.29,0.735,0.495,,291.5,0.581
367,1.26,0.723,0.489,,293.5,0.535
368,1.16,0.668,0.453,,295.5,0.553
369,1.19,0.693,0.472,,297.5,0.507
370,1.29,0.755,0.517,,299.5,0.484
371,1.18,0.693,0.476,,301.5,0.456
372,1.14,0.674,0.465,,303.5,0.621
373,1.04,0.619,0.428,,305.5,0.595
374,0.934,0.556,0.387,,307.5,0.615
375,0.985,0.589,0.411,,309.5,0.496
376,1.12,0.675,0.472,,311.5,0.729
377,1.18,0.712,0.5,,313.5,0.7
378,1.41,0.856,0.603,,315.5,0.633
379,1.23,0.744,0.526,,317.5,0.774
380,1.15,0.701,0.498,,319.5,0.711
381,1.25,0.764,0.544,,321.5,0.7
382,0.954,0.587,0.42,,323.5,0.661
383,0.736,0.455,0.326,,325.5,0.876
384,0.821,0.51,0.367,,327.5,0.953
385,1.08,0.674,0.486,,329.5,1.06
386,0.991,0.621,0.45,,331.5,0.966
387,1.04,0.651,0.473,,333.5,0.922
388,1.01,0.636,0.464,,335.5,0.943
389,1.08,0.685,0.501,,337.5,0.842
390,1.25,0.797,0.585,,339.5,0.958
391,1.33,0.851,0.626,,341.5,0.924
392,1.24,0.795,0.587,,343.5,0.951
393,0.745,0.48,0.355,,345.5,0.939
394,0.767,0.496,0.368,,347.5,0.902
395,1.25,0.808,0.601,,349.5,0.89
396,1.16,0.757,0.564,,351.5,0.98
397,0.652,0.426,0.319,,353.5,1.03
398,1.3,0.852,0.639,,355.5,1.04
399,1.62,1.07,0.804,,357.5,0.796
400,1.69,1.11,0.84,,359.5,0.991
402,1.81,1.21,0.914,,361.5,0.878
404,1.76,1.18,0.898,,363.5,0.997
406,1.67,1.12,0.859,,365.5,1.15
408,1.7,1.15,0.885,,367.5,1.18
410,1.54,1.05,0.809,,369.5,1.23
412,1.82,1.25,0.967,,371.5,1.18
414,1.71,1.18,0.921,,373.5,0.92
416,1.81,1.26,0.986,,375.5,1.06
418,1.69,1.18,0.924,,377.5,1.28
420,1.6,1.12,0.885,,379.5,1.07
422,1.78,1.26,0.995,,381.5,1.08
424,1.71,1.21,0.962,,383.5,0.684
426,1.7,1.21,0.967,,385.5,1.01
428,1.65,1.18,0.946,,387.5,1
430,1.21,0.875,0.701,,389.5,1.17
432,1.82,1.32,1.06,,391.5,1.34
434,1.56,1.14,0.917,,393.5,0.582
436,1.87,1.37,1.11,,395.5,1.31
438,1.66,1.22,0.994,,397.5,0.929
440,1.83,1.35,1.1,,399.5,1.66
442,1.92,1.43,1.16,,401.5,1.75
444,1.89,1.41,1.15,,403.5,1.68
446,1.76,1.31,1.08,,405.5,1.67
448,2.01,1.51,1.24,,407.5,1.63
450,2.07,1.56,1.29,,409.5,1.72
452,2.05,1.55,1.28,,411.5,1.82
454,2.02,1.53,1.27,,413.5,1.76
456,2.06,1.57,1.31,,415.5,1.73
458,2.03,1.55,1.29,,417.5,1.67
460,2,1.53,1.28,,419.5,1.7
462,2.08,1.6,1.34,,421.5,1.8
464,2.02,1.55,1.31,,423.5,1.71
466,2.02,1.57,1.32,,425.5,1.7
468,2.01,1.56,1.32,,427.5,1.57
470,1.94,1.51,1.27,,429.5,1.48
472,2.07,1.61,1.37,,431.5,1.69
474,2.01,1.57,1.33,,433.5,1.73
476,2.01,1.56,1.33,,435.5,1.72
478,2.09,1.62,1.38,,437.5,1.81
480,2.07,1.62,1.38,,439.5,1.82
482,2.06,1.62,1.39,,441.5,1.93
484,1.99,1.57,1.35,,443.5,1.91
486,1.6,1.27,1.09,,445.5,1.82
488,1.94,1.54,1.33,,447.5,2.08
490,2.03,1.62,1.4,,449.5,2.03
492,1.86,1.49,1.28,,451.5,2.11
494,1.93,1.55,1.34,,453.5,1.97
496,1.95,1.57,1.35,,455.5,2.03
498,1.92,1.55,1.34,,457.5,2.1
500,1.92,1.55,1.34,,459.5,2.01
502,1.86,1.5,1.3,,461.5,2.06
504,1.83,1.46,1.27,,463.5,2.04
506,2.02,1.63,1.42,,465.5,2.04
508,1.88,1.52,1.32,,467.5,2.02
510,1.91,1.55,1.35,,469.5,1.99
512,1.99,1.62,1.41,,471.5,2.02
514,1.82,1.49,1.3,,473.5,1.99
516,1.89,1.55,1.35,,475.5,2.02
518,1.76,1.44,1.26,,477.5,2.08
520,1.86,1.52,1.33,,479.5,2.08
522,1.92,1.57,1.38,,481.5,2.09
524,1.94,1.59,1.4,,483.5,2.02
526,1.87,1.53,1.35,,485.5,1.83
528,1.88,1.54,1.35,,487.5,1.83
530,1.89,1.54,1.36,,489.5,1.96
532,1.96,1.6,1.41,,491.5,1.9
534,1.87,1.53,1.35,,493.5,1.89
536,1.97,1.62,1.43,,495.5,1.93
538,1.91,1.57,1.39,,497.5,2.02
540,1.8,1.48,1.31,,499.5,1.97
542,1.89,1.55,1.37,,501.5,1.81
544,1.92,1.58,1.4,,503.5,1.93
546,1.86,1.53,1.35,,505.5,1.99
548,1.83,1.5,1.33,,507.5,1.91
550,1.86,1.54,1.36,,509.5,1.92
552,1.9,1.57,1.39,,511.5,2
554,1.88,1.55,1.38,,513.5,1.86
556,1.86,1.54,1.37,,515.5,1.9
558,1.85,1.53,1.36,,517.5,1.73
560,1.79,1.47,1.31,,519.5,1.83
562,1.8,1.48,1.32,,521.5,1.91
564,1.84,1.51,1.35,,523.5,1.89
566,1.75,1.44,1.28,,525.5,1.93
568,1.86,1.52,1.36,,527.5,1.83
570,1.83,1.48,1.32,,529.5,1.92
572,1.87,1.51,1.35,,531.5,1.96
574,1.87,1.51,1.35,,533.5,1.92
576,1.82,1.47,1.31,,535.5,1.99
578,1.8,1.46,1.3,,537.5,1.88
580,1.83,1.5,1.35,,539.5,1.83
582,1.85,1.53,1.37,,541.5,1.88
584,1.85,1.54,1.38,,543.5,1.88
586,1.79,1.5,1.34,,545.5,1.9
588,1.82,1.49,1.34,,547.5,1.83
590,1.72,1.37,1.23,,549.5,1.9
592,1.79,1.44,1.29,,551.5,1.87
594,1.79,1.45,1.3,,553.5,1.88
596,1.8,1.47,1.33,,555.5,1.9
598,1.77,1.46,1.31,,557.5,1.85
600,1.77,1.48,1.33,,559.5,1.81
602,1.72,1.44,1.29,,561.5,1.82
604,1.78,1.49,1.34,,563.5,1.86
606,1.76,1.48,1.34,,565.5,1.8
608,1.75,1.49,1.34,,567.5,1.89
610,1.72,1.47,1.32,,569.5,1.86
612,1.74,1.48,1.34,,571.5,1.82
614,1.66,1.42,1.28,,573.5,1.88
616,1.66,1.43,1.29,,575.5,1.83
618,1.7,1.47,1.32,,577.5,1.86
620,1.71,1.47,1.33,,579.5,1.83
622,1.68,1.43,1.29,,581.5,1.85
624,1.67,1.41,1.28,,583.5,1.86
626,1.64,1.4,1.27,,585.5,1.78
628,1.69,1.36,1.23,,587.5,1.85
630,1.67,1.39,1.26,,589.5,1.61
632,1.59,1.36,1.23,,591.5,1.79
634,1.64,1.43,1.29,,593.5,1.8
636,1.61,1.41,1.28,,595.5,1.78
638,1.67,1.47,1.33,,597.5,1.78
640,1.61,1.43,1.3,,599.5,1.77
642,1.61,1.44,1.3,,601.5,1.75
644,1.61,1.45,1.31,,603.5,1.79
646,1.59,1.42,1.28,,605.5,1.76
648,1.6,1.4,1.26,,607.5,1.76
650,1.53,1.36,1.23,,609.5,1.74
652,1.59,1.39,1.26,,611.5,1.75
654,1.57,1.42,1.28,,613.5,1.68
656,1.32,1.19,1.07,,615.5,1.71
658,1.54,1.39,1.25,,617.5,1.71
660,1.56,1.4,1.27,,619.5,1.71
662,1.57,1.38,1.25,,621.5,1.69
664,1.55,1.4,1.26,,623.5,1.67
666,1.55,1.42,1.29,,625.5,1.63
668,1.53,1.42,1.28,,627.5,1.7
670,1.53,1.42,1.29,,629.5,1.68
672,1.51,1.4,1.27,,633,1.65
674,1.51,1.41,1.27,,637,1.65
676,1.51,1.41,1.28,,641,1.61
678,1.51,1.41,1.27,,645,1.63
680,1.49,1.4,1.26,,649,1.56
682,1.49,1.4,1.27,,653,1.6
684,1.47,1.37,1.24,,657,1.38
686,1.43,1.34,1.22,,661,1.57
688,1.48,1.12,1.02,,665,1.56
690,1.48,1.18,1.07,,669,1.55
692,1.45,1.27,1.15,,673,1.52
694,1.46,1.25,1.13,,677,1.51
696,1.44,1.27,1.15,,681,1.49
698,1.42,1.32,1.2,,685,1.46
700,1.42,1.28,1.16,,689,1.46
702,1.4,1.27,1.15,,693,1.45
704,1.42,1.31,1.19,,697,1.42
706,1.41,1.31,1.19,,701,1.39
708,1.4,1.3,1.18,,705,1.42
710,1.4,1.32,1.2,,709,1.38
712,1.38,1.31,1.19,,713,1.37
714,1.38,1.3,1.18,,717,1.35
716,1.37,1.27,1.15,,721,1.33
718,1.36,1.03,0.939,,725,1.35
720,1.35,0.986,0.899,,729,1.32
722,1.36,1.24,1.13,,733,1.32
724,1.36,1.06,0.963,,737,1.31
726,1.34,1.08,0.986,,741,1.26
728,1.34,1.04,0.95,,745,1.28
730,1.34,1.13,1.03,,749,1.27
732,1.33,1.15,1.05,,753,1.26
734,1.34,1.24,1.13,,757,1.25
736,1.31,1.21,1.1,,761,1.24
738,1.3,1.23,1.12,,765,1.22
740,1.28,1.22,1.11,,769,1.2
742,1.26,1.22,1.11,,773,1.21
744,1.3,1.25,1.14,,777,1.2
746,1.29,1.25,1.14,,781,1.19
748,1.28,1.24,1.13,,785,1.18
750,1.27,1.23,1.13,,789,1.17
752,1.27,1.23,1.13,,793,1.14
754,1.28,1.24,1.14,,797,1.15
756,1.26,1.22,1.12,,801,1.14
758,1.27,1.23,1.12,,805,1.11
760,1.26,0.266,0.247,,809,1.09
762,1.25,0.688,0.635,,813,1.11
764,1.26,0.539,0.499,,817,1.1
766,1.2,0.815,0.751,,821,1.08
768,1.23,1.11,1.02,,825,1.07
770,1.21,1.16,1.06,,828,1.08
772,1.21,1.18,1.08,,832,1.05
774,1.21,1.18,1.08,,836,1.05
776,1.21,1.18,1.08,,840,1.04
778,1.2,1.17,1.08,,844,1.02
780,1.19,1.16,1.07,,848,1.02
782,1.2,1.17,1.07,,852,0.996
784,1.18,1.15,1.06,,856,0.976
786,1.19,1.16,1.07,,860,0.997
788,1.18,1.13,1.04,,864,0.999
790,1.17,1.09,1,,868,0.94
792,1.15,1.1,1.01,,872,0.983
794,1.13,1.1,1.01,,876,0.964
796,1.14,1.07,0.99,,880,0.955
798,1.15,1.11,1.02,,884,0.958
800,1.12,1.07,0.989,,888,0.944
802,1.14,1.09,1,,892,0.939
804,1.13,1.08,0.995,,896,0.939
806,1.13,1.1,1.01,,900,0.916
808,1.12,1.08,0.998,,904,0.928
810,1.11,1.06,0.975,,908,0.902
812,1.12,1.03,0.949,,912,0.897
814,1.12,0.904,0.837,,916,0.9
816,1.1,0.832,0.772,,920,0.891
818,1.09,0.823,0.763,,924,0.859
820,1.07,0.862,0.799,,928,0.877
822,1.06,0.952,0.881,,932,0.865
824,1.07,0.935,0.866,,936,0.855
826,1.08,0.934,0.865,,940,0.844
828,1.07,0.85,0.789,,944,0.832
830,1.06,0.916,0.849,,948,0.841
832,1.05,0.894,0.83,,952,0.832
834,1.05,0.934,0.866,,956,0.808
836,1.06,0.972,0.901,,960,0.815
838,1.05,0.999,0.926,,964,0.801
840,1.05,1.02,0.941,,968,0.797
842,1.03,0.997,0.924,,972,0.794
844,1.01,0.986,0.914,,976,0.782
846,1.04,1.02,0.944,,980,0.775
848,1.01,0.992,0.92,,984,0.77
850,0.91,0.894,0.829,,988,0.761
852,0.99,0.969,0.899,,992,0.757
854,0.869,0.851,0.79,,996,0.752
856,0.99,0.973,0.903,,1000,0.748
858,1.01,0.992,0.921,,1004,0.726
860,1,0.988,0.918,,1008,0.734
862,1.01,0.994,0.924,,1012,0.726
864,0.99,0.979,0.91,,1016,0.714
866,0.858,0.849,0.789,,1020,0.704
868,0.969,0.959,0.891,,1024,0.705
870,0.977,0.968,0.899,,1028,0.699
872,0.976,0.967,0.899,,1032,0.691
874,0.949,0.94,0.875,,1036,0.684
876,0.962,0.953,0.886,,1040,0.676
878,0.962,0.952,0.886,,1044,0.671
880,0.949,0.94,0.874,,1048,0.664
882,0.944,0.932,0.868,,1052,0.659
884,0.944,0.933,0.869,,1056,0.656
886,0.926,0.908,0.845,,1060,0.641
888,0.941,0.922,0.859,,1064,0.646
890,0.942,0.924,0.861,,1068,0.632
892,0.933,0.909,0.847,,1072,0.633
894,0.924,0.851,0.794,,1076,0.628
896,0.934,0.763,0.713,,1080,0.625
898,0.924,0.718,0.671,,1084,0.618
900,0.914,0.743,0.694,,1088,0.61
902,0.877,0.668,0.625,,1092,0.616
904,0.921,0.845,0.789,,1096,0.598
906,0.908,0.776,0.725,,1100,0.604
908,0.901,0.652,0.611,,1104,0.597
910,0.895,0.625,0.586,,1108,0.592
912,0.89,0.689,0.645,,1112,0.584
914,0.898,0.626,0.587,,1116,0.583
916,0.895,0.576,0.541,,1120,0.574
918,0.888,0.593,0.556,,1124,0.577
920,0.885,0.744,0.697,,1128,0.57
922,0.863,0.7,0.656,,1132,0.568
924,0.87,0.722,0.676,,1136,0.566
926,0.846,0.703,0.659,,1140,0.553
928,0.871,0.59,0.554,,1144,0.551
930,0.869,0.432,0.407,,1148,0.552
932,0.865,0.301,0.284,,1152,0.546
934,0.867,0.144,0.136,,1156,0.545
936,0.852,0.161,0.153,,1160,0.532
938,0.859,0.201,0.19,,1164,0.533
940,0.84,0.472,0.444,,1168,0.531
942,0.806,0.405,0.382,,1172,0.531
944,0.819,0.286,0.27,,1176,0.518
946,0.831,0.195,0.184,,1180,0.524
948,0.831,0.274,0.259,,1184,0.51
950,0.829,0.147,0.139,,1188,0.507
952,0.824,0.269,0.254,,1192,0.516
954,0.812,0.424,0.4,,1196,0.508
956,0.802,0.328,0.31,,1200,0.5
958,0.811,0.461,0.435,,1204,0.495
960,0.806,0.421,0.397,,1208,0.489
962,0.802,0.442,0.417,,1212,0.493
964,0.788,0.459,0.432,,1216,0.493
966,0.786,0.503,0.474,,1220,0.487
968,0.785,0.652,0.613,,1224,0.485
970,0.791,0.635,0.597,,1228,0.477
972,0.788,0.688,0.646,,1232,0.475
974,0.769,0.575,0.542,,1236,0.472
976,0.781,0.572,0.539,,1240,0.465
978,0.778,0.615,0.579,,1244,0.462
980,0.775,0.605,0.569,,1248,0.463
982,0.779,0.692,0.651,,1252,0.457
984,0.769,0.737,0.693,,1256,0.455
986,0.766,0.751,0.706,,1260,0.453
988,0.764,0.735,0.691,,1264,0.448
990,0.757,0.732,0.688,,1268,0.442
992,0.757,0.751,0.706,,1272,0.445
994,0.759,0.754,0.709,,1276,0.445
996,0.753,0.749,0.704,,1280,0.436
998,0.743,0.739,0.695,,1284,0.426
1000,0.743,0.735,0.692,,1288,0.431
1002,0.747,0.728,0.685,,1292,0.425
1004,0.731,0.723,0.681,,1296,0.422
1006,0.718,0.713,0.67,,1300,0.419
1008,0.733,0.727,0.684,,1304,0.411
1010,0.731,0.719,0.677,,1308,0.412
1012,0.725,0.719,0.677,,1312,0.403
1014,0.723,0.721,0.678,,1316,0.398
1016,0.714,0.711,0.67,,1320,0.402
1018,0.716,0.714,0.673,,1324,0.398
1020,0.701,0.699,0.658,,1328,0.391
1022,0.693,0.69,0.65,,1332,0.386
1024,0.701,0.691,0.651,,1336,0.387
1026,0.699,0.696,0.656,,1340,0.379
1028,0.697,0.694,0.654,,1344,0.38
1030,0.692,0.691,0.651,,1348,0.377
1032,0.69,0.688,0.649,,1352,0.374
1034,0.682,0.68,0.641,,1356,0.367
1036,0.684,0.682,0.643,,1360,0.367
1038,0.674,0.672,0.634,,1364,0.366
1040,0.674,0.672,0.634,,1368,0.363
1042,0.675,0.672,0.634,,1372,0.362
1044,0.672,0.668,0.631,,1376,0.356
1046,0.651,0.647,0.611,,1380,0.358
1048,0.668,0.663,0.626,,1384,0.355
1050,0.661,0.655,0.618,,1388,0.353
1052,0.658,0.651,0.615,,1392,0.351
1054,0.655,0.646,0.61,,1396,0.349
1056,0.656,0.646,0.611,,1400,0.343
1058,0.649,0.638,0.603,,1404,0.343
1060,0.648,0.636,0.601,,1408,0.343
1062,0.647,0.633,0.598,,1412,0.335
1064,0.646,0.632,0.597,,1416,0.339
1066,0.631,0.617,0.583,,1420,0.336
1068,0.636,0.619,0.586,,1424,0.331
1070,0.622,0.605,0.572,,1428,0.329
1072,0.631,0.615,0.582,,1432,0.33
1074,0.631,0.622,0.588,,1436,0.329
1076,0.625,0.615,0.581,,1440,0.319
1078,0.625,0.603,0.571,,1444,0.32
1080,0.623,0.597,0.565,,1448,0.322
1082,0.602,0.589,0.558,,1452,0.315
1084,0.614,0.579,0.548,,1456,0.313
1086,0.616,0.554,0.525,,1460,0.316
1088,0.607,0.593,0.562,,1464,0.31
1090,0.604,0.556,0.527,,1468,0.311
1092,0.597,0.581,0.55,,1472,0.307
1094,0.561,0.54,0.511,,1476,0.305
1096,0.586,0.503,0.477,,1480,0.307
1098,0.587,0.503,0.477,,1484,0.304
1100,0.6,0.486,0.461,,1488,0.285
1102,0.582,0.469,0.445,,1492,0.302
1104,0.593,0.468,0.444,,1496,0.297
1106,0.59,0.398,0.378,,1500,0.301
1108,0.587,0.416,0.395,,1504,0.28
1110,0.587,0.479,0.455,,1508,0.292
1112,0.583,0.414,0.393,,1512,0.291
1114,0.584,0.3,0.286,,1516,0.288
1116,0.575,0.201,0.192,,1520,0.287
1118,0.572,0.218,0.208,,1524,0.283
1120,0.569,0.142,0.136,,1528,0.285
1122,0.575,0.0817,0.0782,,1532,0.282
1124,0.573,0.109,0.104,,1536,0.281
1126,0.553,0.0516,0.0494,,1540,0.273
1128,0.568,0.0992,0.0949,,1544,0.278
1130,0.564,0.0706,0.0676,,1548,0.271
1132,0.57,0.234,0.224,,1552,0.273
1134,0.563,0.0417,0.04,,1556,0.267
1136,0.565,0.129,0.123,,1560,0.268
1138,0.544,0.203,0.194,,1564,0.267
1140,0.556,0.256,0.244,,1568,0.263
1142,0.555,0.225,0.215,,1572,0.267
1144,0.545,0.113,0.108,,1576,0.254
1146,0.554,0.158,0.151,,1580,0.265
1148,0.55,0.271,0.259,,1584,0.259
1150,0.546,0.122,0.116,,1588,0.249
1152,0.542,0.248,0.237,,1592,0.253
1154,0.547,0.142,0.136,,1596,0.251
1156,0.54,0.281,0.268,,1600,0.251
1158,0.543,0.312,0.298,,1604,0.25
1160,0.529,0.286,0.274,,1608,0.249
1162,0.533,0.35,0.334,,1612,0.243
1164,0.527,0.402,0.383,,1616,0.237
1166,0.522,0.375,0.358,,1620,0.237
1168,0.534,0.42,0.4,,1624,0.242
1170,0.529,0.459,0.437,,1628,0.242
1172,0.531,0.455,0.434,,1632,0.239
1174,0.528,0.337,0.322,,1636,0.236
1176,0.51,0.477,0.454,,1640,0.226
1178,0.517,0.36,0.344,,1644,0.228
1180,0.522,0.441,0.421,,1648,0.229
1182,0.517,0.323,0.309,,1652,0.227
1184,0.511,0.42,0.401,,1656,0.226
1186,0.515,0.477,0.455,,1660,0.225
1188,0.51,0.335,0.32,,1664,0.223
1190,0.506,0.462,0.441,,1668,0.219
1192,0.512,0.473,0.452,,1672,0.217
1194,0.511,0.469,0.448,,1676,0.216
1196,0.506,0.431,0.412,,1680,0.208
1198,0.492,0.434,0.414,,1684,0.213
1200,0.5,0.448,0.428,,1688,0.212
1202,0.507,0.437,0.417,,1692,0.212
1204,0.487,0.362,0.346,,1696,0.21
1206,0.499,0.481,0.459,,1700,0.206
1208,0.49,0.433,0.414,,1704,0.205
1210,0.492,0.453,0.433,,1708,0.202
1212,0.491,0.425,0.406,,1712,0.198
1214,0.489,0.434,0.414,,1716,0.202
1216,0.489,0.466,0.445,,1720,0.199
1218,0.486,0.459,0.438,,1724,0.195
1220,0.484,0.458,0.437,,1728,0.197
1222,0.481,0.451,0.431,,1732,0.194
1224,0.482,0.448,0.428,,1736,0.183
1226,0.48,0.468,0.447,,1740,0.191
1228,0.474,0.467,0.445,,1744,0.191
1230,0.475,0.46,0.439,,1748,0.187
1232,0.469,0.466,0.445,,1752,0.185
1234,0.469,0.47,0.449,,1756,0.185
1236,0.469,0.469,0.448,,1760,0.183
1238,0.467,0.468,0.447,,1764,0.181
1240,0.46,0.461,0.44,,1768,0.18
1242,0.462,0.462,0.442,,1772,0.179
1244,0.455,0.455,0.435,,1776,0.176
1246,0.459,0.459,0.439,,1780,0.176
1248,0.461,0.459,0.438,,1784,0.173
1250,0.459,0.457,0.437,,1788,0.175
1252,0.452,0.451,0.431,,1792,0.172
1254,0.454,0.444,0.424,,1796,0.171
1256,0.452,0.44,0.421,,1800,0.17
1258,0.451,0.445,0.425,,1804,0.169
1260,0.45,0.431,0.412,,1808,0.169
1262,0.443,0.396,0.379,,1812,0.168
1264,0.442,0.371,0.356,,1816,0.161
1266,0.446,0.385,0.369,,1820,0.16
1268,0.436,0.371,0.355,,1824,0.162
1270,0.442,0.387,0.371,,1828,0.161
1272,0.441,0.409,0.391,,1832,0.159
1274,0.438,0.406,0.389,,1836,0.158
1276,0.442,0.417,0.399,,1840,0.156
1278,0.441,0.428,0.409,,1844,0.154
1280,0.435,0.422,0.404,,1848,0.151
1282,0.376,0.373,0.357,,1852,0.153
1284,0.427,0.421,0.403,,1856,0.151
1286,0.429,0.427,0.409,,1860,0.15
1288,0.427,0.42,0.402,,1864,0.151
1290,0.419,0.413,0.395,,1868,0.149
1292,0.423,0.396,0.379,,1872,0.147
1294,0.416,0.404,0.387,,1876,0.13
1296,0.42,0.39,0.373,,1880,0.146
1298,0.413,0.392,0.375,,1884,0.146
1300,0.415,0.353,0.339,,1888,0.145
1302,0.41,0.392,0.375,,1892,0.141
1304,0.406,0.301,0.288,,1896,0.137
1306,0.41,0.385,0.369,,1900,0.14
1308,0.409,0.347,0.333,,1904,0.139
1310,0.407,0.301,0.289,,1908,0.138
1312,0.403,0.333,0.32,,1912,0.135
1314,0.403,0.288,0.277,,1916,0.136
1316,0.394,0.324,0.311,,1920,0.133
1318,0.395,0.333,0.32,,1924,0.134
1320,0.399,0.259,0.249,,1928,0.132
1322,0.395,0.302,0.29,,1932,0.131
1324,0.395,0.262,0.252,,1936,0.133
1326,0.392,0.281,0.27,,1940,0.13
1328,0.391,0.234,0.226,,1944,0.12
1330,0.385,0.229,0.221,,1948,0.127
1332,0.379,0.146,0.14,,1952,0.126
1334,0.387,0.169,0.163,,1956,0.128
1336,0.382,0.183,0.177,,1960,0.126
1338,0.381,0.178,0.172,,1964,0.122
1340,0.374,0.168,0.162,,1968,0.124
1342,0.38,0.178,0.171,,1972,0.121
1344,0.38,0.0756,0.073,,1976,0.122
1346,0.376,0.0582,0.0562,,1980,0.12
1348,0.377,0.00475,0.00459,,1984,0.12
1350,0.371,0.016,0.0155,,1988,0.119
1352,0.375,0.00152,0.00147,,1992,0.118
1354,0.373,0.00029,0.000281,,1996,0.117
1356,0.369,4.81E-05,4.65E-05,,2000,0.117
1358,0.37,4.19E-06,4.06E-06,,2004,0.115
1360,0.365,2.14E-06,2.07E-06,,2008,0.115
1362,0.369,1.81E-11,1.75E-11,,2012,0.115
1364,0.367,1.36E-06,1.31E-06,,2016,0.114
1366,0.366,1.28E-05,1.24E-05,,2020,0.112
1368,0.366,1.48E-13,1.43E-13,,2024,0.112
1370,0.359,2.92E-07,2.83E-07,,2028,0.111
1372,0.363,2.75E-06,2.66E-06,,2032,0.11
1374,0.363,0.000179,0.000173,,2036,0.108
1376,0.353,0.000257,0.000249,,2040,0.108
1378,0.357,0.00111,0.00107,,2044,0.108
1380,0.357,8.16E-05,7.9E-05,,2048,0.106
1382,0.353,2.57E-06,2.49E-06,,2052,0.105
1384,0.356,6.17E-07,5.98E-07,,2056,0.105
1386,0.355,2.52E-06,2.44E-06,,2060,0.103
1388,0.353,4.03E-06,3.9E-06,,2064,0.101
1390,0.347,0.000493,0.000478,,2068,0.102
1392,0.352,2.38E-05,2.31E-05,,2072,0.1
1394,0.348,7.55E-05,7.33E-05,,2076,0.101
1396,0.349,6.32E-09,6.13E-09,,2080,0.0988
1398,0.35,0.00127,0.00123,,2084,0.0977
1400,0.339,3.25E-09,3.15E-09,,2088,0.0983
1402,0.344,0.00184,0.00178,,2092,0.0957
1404,0.341,0.000739,0.000718,,2096,0.0958
1406,0.342,0.00204,0.00199,,2100,0.0961
1408,0.34,0.00165,0.0016,,2104,0.0956
1410,0.34,0.000467,0.000453,,2108,0.0951
1412,0.329,0.00264,0.00257,,2112,0.0945
1414,0.337,0.000364,0.000354,,2116,0.0933
1416,0.335,0.0356,0.0346,,2120,0.0927
1418,0.338,0.0136,0.0132,,2124,0.0919
1420,0.333,0.00827,0.00804,,2128,0.0922
1422,0.329,0.0463,0.045,,2132,0.0921
1424,0.328,0.017,0.0165,,2136,0.0901
1426,0.323,0.0278,0.027,,2140,0.0908
1428,0.33,0.00456,0.00444,,2144,0.0901
1430,0.323,0.0616,0.0599,,2148,0.0898
1432,0.331,0.00252,0.00245,,2152,0.0891
1434,0.325,0.021,0.0204,,2156,0.0887
1436,0.327,0.0384,0.0373,,2160,0.0878
1438,0.326,0.0133,0.0129,,2164,0.0846
1440,0.313,0.0396,0.0385,,2168,0.083
1442,0.316,0.0363,0.0354,,2172,0.0859
1444,0.319,0.0618,0.0601,,2176,0.0853
1446,0.321,0.0231,0.0225,,2180,0.085
1448,0.321,0.116,0.113,,2184,0.0846
1450,0.318,0.0274,0.0267,,2188,0.0828
1452,0.314,0.0624,0.0607,,2192,0.0838
1454,0.313,0.138,0.134,,2196,0.0832
1456,0.31,0.0885,0.0862,,2200,0.0827
1458,0.316,0.136,0.133,,2204,0.0821
1460,0.314,0.0854,0.0832,,2208,0.0797
1462,0.31,0.131,0.127,,2212,0.081
1464,0.308,0.152,0.148,,2216,0.0799
1466,0.307,0.0652,0.0635,,2220,0.08
1468,0.307,0.0769,0.0749,,2224,0.0793
1470,0.31,0.0497,0.0484,,2228,0.0783
1472,0.306,0.0468,0.0456,,2232,0.0782
1474,0.297,0.0973,0.0948,,2236,0.0776
1476,0.304,0.0688,0.067,,2240,0.0764
1478,0.302,0.0635,0.0618,,2244,0.0762
1480,0.306,0.0606,0.0591,,2248,0.0752
1482,0.305,0.0585,0.057,,2252,0.0751
1484,0.302,0.137,0.134,,2256,0.0742
1486,0.302,0.123,0.12,,2260,0.0742
1488,0.265,0.0942,0.0917,,2264,0.0733
1490,0.301,0.175,0.17,,2268,0.0733
1492,0.298,0.164,0.16,,2272,0.0728
1494,0.302,0.204,0.198,,2276,0.0724
1496,0.291,0.169,0.164,,2280,0.0717
1498,0.299,0.19,0.184,,2284,0.0712
1500,0.301,0.251,0.243,,2288,0.0713
1502,0.297,0.234,0.227,,2292,0.0707
1504,0.283,0.16,0.156,,2296,0.0691
1506,0.284,0.258,0.25,,2300,0.0695
1508,0.29,0.243,0.236,,2304,0.0693
1510,0.294,0.271,0.263,,2308,0.069
1512,0.288,0.261,0.253,,2312,0.0687
1514,0.285,0.226,0.219,,2316,0.0678
1516,0.287,0.257,0.249,,2320,0.0677
1518,0.29,0.252,0.245,,2324,0.0654
1520,0.288,0.265,0.257,,2328,0.0663
1522,0.28,0.264,0.256,,2332,0.0658
1524,0.285,0.275,0.267,,2336,0.0654
1526,0.286,0.267,0.26,,2340,0.0652
1528,0.285,0.279,0.271,,2344,0.0651
1530,0.267,0.255,0.248,,2348,0.0647
1532,0.283,0.278,0.27,,2352,0.0629
1534,0.275,0.269,0.261,,2356,0.0628
1536,0.281,0.275,0.267,,2360,0.0631
1538,0.273,0.272,0.264,,2364,0.063
1540,0.269,0.265,0.257,,2368,0.0626
1542,0.275,0.269,0.262,,2372,0.0621
1544,0.277,0.272,0.264,,2376,0.0616
1546,0.277,0.275,0.267,,2380,0.0617
1548,0.267,0.267,0.259,,2384,0.0588
1550,0.27,0.27,0.262,,2388,0.06
1552,0.274,0.272,0.264,,2392,0.0601
1554,0.265,0.265,0.257,,2396,0.06
1556,0.263,0.263,0.256,,2400,0.0594
1558,0.268,0.268,0.261,,2404,0.0595
1560,0.265,0.266,0.258,,2408,0.0592
1562,0.268,0.268,0.26,,2412,0.0589
1564,0.263,0.263,0.255,,2416,0.056
1566,0.263,0.262,0.255,,2420,0.0577
1568,0.26,0.257,0.25,,2424,0.0573
1570,0.261,0.242,0.235,,2428,0.0571
1572,0.267,0.238,0.231,,2432,0.057
1574,0.262,0.241,0.235,,2436,0.0562
1576,0.26,0.247,0.24,,2440,0.0564
1578,0.257,0.235,0.229,,2444,0.056
1580,0.264,0.245,0.238,,2448,0.0546
1582,0.254,0.242,0.235,,2452,0.0543
1584,0.254,0.249,0.242,,2456,0.0537
1586,0.258,0.256,0.248,,2460,0.0546
1588,0.25,0.251,0.244,,2464,0.0544
1590,0.242,0.242,0.235,,2468,0.0539
1592,0.253,0.252,0.245,,2472,0.0533
1594,0.256,0.256,0.249,,2476,0.0534
1596,0.245,0.245,0.238,,2480,0.0518
1598,0.256,0.254,0.247,,2484,0.0522
1600,0.253,0.238,0.231,,2488,0.0517
1602,0.249,0.224,0.218,,2492,0.052
1604,0.25,0.228,0.222,,2496,0.0515
1606,0.247,0.241,0.235,,2500,0.0515
1608,0.25,0.23,0.223,,2540,0.0481
1610,0.233,0.218,0.211,,2580,0.0455
1612,0.241,0.231,0.224,,2620,0.043
1614,0.243,0.238,0.232,,2660,0.0408
1616,0.232,0.231,0.224,,2700,0.0387
1618,0.244,0.244,0.237,,2740,0.0366
1620,0.234,0.234,0.228,,2780,0.0347
1622,0.237,0.238,0.231,,2820,0.033
1624,0.242,0.243,0.236,,2860,0.0312
1626,0.24,0.24,0.233,,2900,0.0297
1628,0.241,0.241,0.234,,2940,0.0282
1630,0.237,0.237,0.23,,2980,0.0268
1632,0.239,0.238,0.232,,3020,0.0255
1634,0.233,0.233,0.226,,3060,0.0242
1636,0.237,0.235,0.229,,3100,0.0231
1638,0.227,0.22,0.214,,3140,0.022
1640,0.226,0.215,0.209,,3180,0.021
1642,0.224,0.221,0.215,,3220,0.02
1644,0.226,0.224,0.217,,3260,0.0191
1646,0.229,0.217,0.211,,3300,0.018
1648,0.229,0.217,0.211,,3340,0.0174
1650,0.228,0.225,0.219,,3380,0.0166
1652,0.228,0.224,0.218,,3420,0.0158
1654,0.227,0.216,0.21,,3460,0.0152
1656,0.226,0.221,0.215,,3500,0.0146
1658,0.225,0.225,0.219,,3540,0.0139
1660,0.224,0.223,0.217,,3580,0.0133
1662,0.224,0.219,0.213,,3620,0.0128
1664,0.223,0.221,0.215,,3660,0.0122
1666,0.219,0.179,0.174,,3700,0.0116
1668,0.216,0.215,0.209,,3740,0.0111
1670,0.222,0.222,0.216,,3780,0.0108
1672,0.212,0.211,0.206,,3820,0.0104
1674,0.219,0.216,0.21,,3860,0.00998
1676,0.213,0.211,0.206,,3900,0.0096
1678,0.216,0.209,0.204,,3940,0.00923
1680,0.206,0.206,0.2,,3980,0.00886
1682,0.203,0.204,0.198,,4020,0.00856
1684,0.212,0.198,0.193,,4060,0.00822
1686,0.21,0.21,0.205,,4100,0.00789
1688,0.211,0.21,0.205,,4140,0.00759
1690,0.208,0.205,0.2,,4180,0.00729
1692,0.212,0.207,0.202,,4220,0.00701
1694,0.211,0.205,0.2,,4260,0.00675
1696,0.21,0.209,0.204,,4300,0.0065
1698,0.209,0.207,0.202,,4340,0.00625
1700,0.205,0.2,0.195,,4380,0.00602
1705,0.204,0.198,0.193,,4420,0.0058
1715,0.202,0.19,0.185,,4460,0.00559
1725,0.197,0.178,0.174,,4500,0.00539
1735,0.182,0.162,0.158,,4540,0.0052
1745,0.186,0.155,0.151,,4580,0.00502
1755,0.185,0.153,0.149,,4620,0.00484
1765,0.181,0.133,0.13,,4660,0.00467
1775,0.176,0.115,0.112,,4700,0.00451
1785,0.174,0.077,0.0752,,4740,0.00436
1795,0.171,0.0469,0.0459,,4780,0.00421
1805,0.169,0.0148,0.0145,,4820,0.00407
1815,0.155,0.00328,0.00321,,4860,0.00394
1825,0.163,0.00127,0.00125,,4900,0.00381
1835,0.158,6.42E-06,6.28E-06,,4940,0.00368
1845,0.153,6.27E-06,6.13E-06,,4980,0.00356
1855,0.151,2.84E-07,2.78E-07,,5050,0.00339
1865,0.147,1.7E-05,1.66E-05,,5150,0.00315
1875,0.132,4.51E-10,4.43E-10,,5250,0.00292
1885,0.146,4.39E-05,4.31E-05,,5350,0.00271
1895,0.138,0.000129,0.000127,,5450,0.00253
1905,0.139,5.67E-07,5.58E-07,,5550,0.00235
1915,0.136,1.99E-05,1.97E-05,,5650,0.0022
1925,0.134,0.000936,0.000923,,5750,0.00205
1935,0.132,0.00359,0.00354,,5850,0.00192
1945,0.119,0.0109,0.0107,,5950,0.0018
1955,0.128,0.01,0.00989,,6050,0.00169
1965,0.123,0.0286,0.0281,,6150,0.00158
1975,0.121,0.0679,0.0667,,6250,0.00149
1985,0.119,0.0831,0.0816,,6350,0.0014
1995,0.117,0.0812,0.0798,,6450,0.00132
2005,0.115,0.015,0.0147,,6550,0.00124
2015,0.114,0.0266,0.0262,,6650,0.00117
2025,0.112,0.074,0.0728,,6750,0.0011
2035,0.109,0.0964,0.0948,,6850,0.00104
2045,0.108,0.0911,0.0896,,6950,0.000986
2055,0.105,0.0549,0.0541,,7050,0.000933
2065,0.102,0.0619,0.061,,7150,0.000884
2075,0.101,0.0774,0.0763,,7250,0.000837
2085,0.0983,0.0851,0.0838,,7350,0.000794
2095,0.096,0.0897,0.0884,,7450,0.000754
2105,0.0958,0.0932,0.0918,,7550,0.000716
2115,0.0939,0.0917,0.0903,,7650,0.00068
2125,0.0922,0.0886,0.0873,,7750,0.000647
2135,0.0911,0.09,0.0887,,7850,0.000616
2145,0.0899,0.0895,0.0881,,7950,0.000586
2155,0.0889,0.0848,0.0836,,8050,0.000558
2165,0.082,0.0763,0.0752,,8150,0.000532
2175,0.0858,0.0804,0.0793,,8250,0.000508
2185,0.0847,0.0746,0.0735,,8350,0.000485
2195,0.0835,0.079,0.0778,,8450,0.000463
2205,0.0809,0.074,0.0729,,8550,0.000442
2215,0.0804,0.0763,0.0752,,8650,0.000423
2225,0.0788,0.0755,0.0744,,8750,0.000404
2235,0.0779,0.0743,0.0733,,8850,0.000387
2245,0.0762,0.0708,0.0699,,8950,0.000371
2255,0.0743,0.0677,0.0669,,9050,0.000355
2265,0.0733,0.0681,0.0674,,9150,0.00034
2275,0.0726,0.064,0.0633,,9250,0.000326
2285,0.0714,0.0631,0.0624,,9350,0.000313
2295,0.0693,0.0613,0.0606,,9450,0.0003
2305,0.0694,0.0592,0.0585,,9550,0.000288
2315,0.0682,0.0581,0.0575,,9650,0.000277
2325,0.0656,0.0562,0.0556,,9750,0.000266
2335,0.0657,0.058,0.0574,,9850,0.000256
2345,0.0651,0.0514,0.0509,,9950,0.000246
2355,0.0626,0.0475,0.047,,11000,0.000164
2365,0.063,0.0494,0.0489,,13000,8.34E-05
2375,0.0614,0.0441,0.0437,,15000,4.69E-05
2385,0.0591,0.0308,0.0305,,17000,2.83E-05
2395,0.0601,0.0406,0.0402,,19000,1.81E-05
2405,0.0594,0.0336,0.0333,,25000,6.05E-06
2415,0.057,0.0273,0.0271,,35000,1.58E-06
2425,0.0573,0.0331,0.0328,,50000,3.83E-07
2435,0.0565,0.0149,0.0148,,80000,5.88E-08
2445,0.0556,0.0208,0.0207,,120000,1.17E-08
2455,0.0542,0.0249,0.0247,,200000,1.53E-09
2465,0.0543,0.0241,0.024,,300000,2.95E-10
2475,0.0534,0.0165,0.0164,,1000000,3.38E-12
2485,0.0518,0.00561,0.00558,,,
2495,0.0489,0.00288,0.00286,,,
2505,0.0508,0.00152,0.00151,,,
2515,0.0488,0.000519,0.000516,,,
2525,0.0476,4.14E-05,4.12E-05,,,
2535,0.0471,1.75E-07,1.74E-07,,,
2545,0.0466,5.38E-11,5.35E-11,,,
2555,0.0459,1.04E-09,1.04E-09,,,
2565,0.0452,1.6E-14,1.58E-14,,,
2575,0.0445,1.08E-27,1.07E-27,,,
2585,0.0433,1.72E-34,1.71E-34,,,
2595,0.043,2.28E-33,2.27E-33,,,
2605,0.0428,5.81E-35,5.76E-35,,,
2615,0.0423,1.12E-37,1.11E-37,,,
2625,0.0406,3.87E-28,3.84E-28,,,
2635,0.041,3.9E-16,3.87E-16,,,
2645,0.0402,9E-19,8.93E-19,,,
2655,0.0396,1.31E-27,1.3E-27,,,
2665,0.0389,1.11E-37,1.1E-37,,,
2675,0.0386,0,0,,,
2685,0.0382,0,0,,,
2695,0.0375,7.13E-33,7.1E-33,,,
2705,0.0369,2.93E-42,2.93E-42,,,
2715,0.0366,3.86E-26,3.85E-26,,,
2725,0.0361,7.29E-22,7.31E-22,,,
2735,0.0357,5.49E-21,5.51E-21,,,
2745,0.0354,1.31E-23,1.32E-23,,,
2755,0.0349,6.73E-44,6.73E-44,,,
2765,0.0344,2.68E-27,2.7E-27,,,
2775,0.0339,4E-38,4.04E-38,,,
2785,0.0334,3.89E-27,3.93E-27,,,
2795,0.0329,3.62E-16,3.66E-16,,,
2805,0.0325,6.75E-14,6.82E-14,,,
2815,0.0323,2.87E-10,2.9E-10,,,
2825,0.0318,1.76E-07,1.78E-07,,,
2835,0.0314,2.13E-10,2.15E-10,,,
2845,0.0309,4.06E-05,4.11E-05,,,
2855,0.0304,4.49E-07,4.54E-07,,,
2865,0.03,0.000168,0.00017,,,
2875,0.0294,0.000392,0.000397,,,
2885,0.0292,0.000453,0.000459,,,
2895,0.029,0.00266,0.0027,,,
2905,0.0287,0.000111,0.000112,,,
2915,0.0282,0.00126,0.00127,,,
2925,0.0278,0.00108,0.0011,,,
2935,0.0273,0.00649,0.00657,,,
2945,0.0268,0.00145,0.00147,,,
2955,0.0266,0.00234,0.00237,,,
2965,0.0263,0.00744,0.00753,,,
2975,0.026,0.000854,0.000865,,,
2985,0.0257,0.00696,0.00705,,,
2995,0.0254,0.00428,0.00433,,,
3005,0.0251,0.00289,0.00293,,,
3015,0.0249,0.00556,0.00562,,,
3025,0.0245,0.0075,0.00759,,,
3035,0.0242,0.0025,0.00253,,,
3045,0.024,0.00421,0.00426,,,
3055,0.0239,0.000289,0.000293,,,
3065,0.0235,0.00291,0.00295,,,
3075,0.0233,0.00602,0.00609,,,
3085,0.023,0.00177,0.00179,,,
3095,0.0226,0.000655,0.000663,,,
3105,0.0223,0.000922,0.000932,,,
3115,0.0218,0.00227,0.00229,,,
3125,0.0216,0.00303,0.00306,,,
3135,0.0214,0.0114,0.0116,,,
3145,0.0211,0.00325,0.00329,,,
3155,0.0208,0.00564,0.0057,,,
3165,0.0207,0.014,0.0142,,,
3175,0.0205,0.00923,0.00933,,,
3185,0.0202,0.00808,0.00816,,,
3195,0.0201,0.00269,0.00272,,,
3205,0.0199,0.00031,0.000313,,,
3215,0.0196,0.000498,0.000502,,,
3225,0.0194,0.000199,0.000201,,,
3235,0.0193,0.00729,0.00736,,,
3245,0.0191,0.000734,0.000741,,,
3255,0.0189,0.00994,0.01,,,
3265,0.0187,0.00245,0.00247,,,
3275,0.0185,0.00593,0.00598,,,
3285,0.0183,0.0111,0.0112,,,
3295,0.018,0.00122,0.00123,,,
3305,0.0179,0.00394,0.00397,,,
3315,0.0176,1.61E-05,1.63E-05,,,
3325,0.0173,0.00352,0.00355,,,
3335,0.017,0.00907,0.00915,,,
3345,0.0168,0.00354,0.00357,,,
3355,0.0165,0.00363,0.00366,,,
3365,0.0163,0.00719,0.00726,,,
3375,0.0161,0.00846,0.00854,,,
3385,0.016,0.00749,0.00756,,,
3395,0.0158,0.00955,0.00964,,,
3405,0.0157,0.00446,0.00451,,,
3415,0.0155,0.00728,0.00735,,,
3425,0.0153,0.01,0.0101,,,
3435,0.0152,0.0116,0.0117,,,
3445,0.015,0.0113,0.0114,,,
3455,0.0149,0.00831,0.00839,,,
3465,0.0148,0.00982,0.00992,,,
3475,0.0146,0.0109,0.0111,,,
3485,0.0144,0.0121,0.0122,,,
3495,0.0143,0.0123,0.0124,,,
3505,0.0141,0.0118,0.0119,,,
3515,0.014,0.0115,0.0116,,,
3525,0.0139,0.0114,0.0115,,,
3535,0.0138,0.00946,0.00953,,,
3545,0.0137,0.00954,0.00962,,,
3555,0.0135,0.00906,0.00912,,,
3565,0.0134,0.0109,0.0109,,,
3575,0.0132,0.00864,0.0087,,,
3585,0.0131,0.00917,0.00923,,,
3595,0.0129,0.00967,0.00973,,,
3605,0.0128,0.0104,0.0104,,,
3615,0.0127,0.00947,0.00953,,,
3625,0.0126,0.0102,0.0103,,,
3635,0.0125,0.0103,0.0104,,,
3645,0.0124,0.0106,0.0107,,,
3655,0.0122,0.011,0.011,,,
3665,0.0121,0.0103,0.0103,,,
3675,0.012,0.00483,0.00486,,,
3685,0.0118,0.00944,0.00949,,,
3695,0.0117,0.0101,0.0102,,,
3705,0.0116,0.0108,0.0108,,,
3715,0.0115,0.00923,0.00927,,,
3725,0.0114,0.0107,0.0108,,,
3735,0.0113,0.00858,0.00863,,,
3745,0.0111,0.0103,0.0104,,,
3755,0.011,0.00899,0.00903,,,
3765,0.0109,0.00855,0.00859,,,
3775,0.0108,0.00905,0.00909,,,
3785,0.0107,0.00881,0.00885,,,
3795,0.0106,0.00887,0.00891,,,
3805,0.0105,0.0093,0.00934,,,
3815,0.0104,0.00776,0.00779,,,
3825,0.0103,0.00951,0.00954,,,
3835,0.0102,0.00769,0.00772,,,
3845,0.0101,0.00878,0.00881,,,
3855,0.01,0.00851,0.00854,,,
3865,0.00991,0.0081,0.00812,,,
3875,0.00983,0.00676,0.00678,,,
3885,0.0097,0.00677,0.00679,,,
3895,0.00962,0.00748,0.0075,,,
3905,0.00959,0.00793,0.00795,,,
3915,0.0095,0.00699,0.00701,,,
3925,0.0094,0.00685,0.00687,,,
3935,0.0093,0.00735,0.00737,,,
3945,0.0092,0.00754,0.00756,,,
3955,0.00908,0.00772,0.00774,,,
3965,0.00901,0.00781,0.00783,,,
3975,0.00891,0.00751,0.00753,,,
3985,0.0088,0.00743,0.00745,,,
3995,0.0087,0.00721,0.00723,,,
4000,0.00868,0.0071,0.00712,,,